Folder: Phone-Battery/dataset (part 2)

File: pixel_4a-data.csv
timestamp,voltage(V),current(mA),power(W),battery_percent,battery_temperature(Celsius),remaining_battery_charge(mAh),battery_capacity(mAh),battery_technology
2023-04-14 10:44:18.279,3.767,2501,9.4221,1,35.3,61.24,3080,Unknown
2023-04-14 10:44:39.892,3.815,2391,9.12187,2,36.8,61.24,3080,Unknown
2023-04-14 10:46:05.828,3.974,2994,11.8985,4,38.4,122.48,3080,Unknown
2023-04-14 10:47:50.254,3.994,2996,11.9681,7,39.1,214.34,3080,Unknown
2023-04-14 10:48:59.942,4.007,2995,12.0022,10,39.5,275.58,3080,Unknown
2023-04-14 10:50:23.565,4.022,2996,12.0508,12,40.0,336.82,3080,Unknown
2023-04-14 10:51:45.084,3.982,2395,9.53819,14,39.6,398.06,3080,Unknown
2023-04-14 10:53:02.259,3.99,2394,9.55248,16,39.4,459.3,3080,Unknown
2023-04-14 10:54:22.416,4.001,2392,9.57393,18,39.4,520.54,3080,Unknown
2023-04-14 10:56:07.720,4.014,2393,9.60626,21,39.6,581.78,3080,Unknown
2023-04-14 10:58:00.930,4.027,2392,9.63369,23,39.7,643.02,3080,Unknown
2023-04-14 10:59:12.094,4.033,2392,9.64804,25,39.8,704.26,3080,Unknown
2023-04-14 10:59:54.551,4.037,2392,9.66008,26,39.8,734.88,3080,Unknown
2023-04-14 11:01:10.536,4.043,2391,9.6695,28,40.0,765.5,3080,Unknown
2023-04-14 11:01:32.068,4.007,1939,7.76993,28,40.0,796.12,3080,Unknown
2023-04-14 11:03:34.743,4.01,1942,7.79043,31,39.4,857.36,3080,Unknown
2023-04-14 11:05:45.129,4.063,2393,9.72601,34,40.2,949.22,3080,Unknown
2023-04-14 11:08:02.844,4.077,2392,9.75454,37,40.5,1041.08,3080,Unknown
2023-04-14 11:10:09.231,4.089,2395,9.79574,40,40.8,1102.32,3080,Unknown
2023-04-14 11:12:28.021,4.103,2393,9.82176,43,41.0,1194.18,3080,Unknown
2023-04-14 11:14:19.899,4.118,2394,9.86144,46,41.2,1286.04,3080,Unknown
2023-04-14 11:16:24.820,4.093,1939,7.93918,49,40.9,1347.28,3080,Unknown
2023-04-14 11:18:30.113,4.104,1938,7.95677,51,40.6,1408.52,3080,Unknown
2023-04-14 11:20:10.366,4.116,278,1.14557,53,40.5,1469.76,3080,Unknown
2023-04-14 11:20:47.205,4.119,1936,7.97704,54,40.5,1500.38,3080,Unknown
2023-04-14 11:21:08.682,4.083,1430,5.84016,54,40.7,1500.38,3080,Unknown
2023-04-14 11:21:30.166,4.079,1431,5.84066,55,40.2,1500.38,3080,Unknown
2023-04-14 11:21:51.622,4.079,1428,5.82697,55,40.0,1531.0,3080,Unknown
2023-04-14 11:22:13.087,4.079,1430,5.83443,55,40.1,1531.0,3080,Unknown
2023-04-14 11:22:34.531,4.081,1432,5.84602,56,40.1,1531.0,3080,Unknown
2023-04-14 11:22:55.971,4.083,1430,5.83891,56,40.1,1561.62,3080,Unknown
2023-04-14 11:23:17.420,4.084,1432,5.84906,56,40.1,1561.62,3080,Unknown
2023-04-14 11:23:38.854,4.086,1434,5.85941,57,40.1,1561.62,3080,Unknown
2023-04-14 11:24:00.308,4.087,1432,5.85586,57,40.2,1561.62,3080,Unknown
2023-04-14 11:24:34.314,4.092,1434,5.86927,57,40.2,1592.24,3080,Unknown
2023-04-14 11:26:01.718,4.098,1434,5.87787,58,40.3,1622.86,3080,Unknown
2023-04-14 11:27:42.156,4.163,1942,8.08767,60,41.0,1684.1,3080,Unknown
2023-04-14 11:29:17.729,4.179,1941,8.11238,62,41.0,1714.72,3080,Unknown
2023-04-14 11:30:37.591,4.189,278,1.1646,63,41.0,1775.96,3080,Unknown
2023-04-14 11:31:39.148,4.2,1938,8.14032,64,41.0,1806.58,3080,Unknown
2023-04-14 11:32:00.867,4.12,925,3.81221,65,41.1,1806.58,3080,Unknown
2023-04-14 11:32:33.065,4.112,925,3.80731,65,40.3,1806.58,3080,Unknown
2023-04-14 11:33:26.515,4.113,925,3.80573,66,40.2,1837.2,3080,Unknown
2023-04-14 11:33:48.021,4.114,927,3.81544,66,40.2,1837.2,3080,Unknown
2023-04-14 11:34:11.494,4.116,926,3.81479,66,40.2,1837.2,3080,Unknown
2023-04-14 11:35:01.758,4.121,924,3.81188,67,40.2,1867.82,3080,Unknown
2023-04-14 11:35:23.253,4.164,1432,5.96364,67,40.2,1867.82,3080,Unknown
2023-04-14 11:35:53.918,4.131,927,3.83121,67,40.5,1867.82,3080,Unknown
2023-04-14 11:36:34.194,4.175,1433,5.98449,68,40.3,1898.44,3080,Unknown
2023-04-14 11:37:34.025,4.23,1939,8.20363,68,40.6,1898.44,3080,Unknown
2023-04-14 11:38:16.845,4.244,1942,8.24374,69,41.0,1929.06,3080,Unknown
2023-04-14 11:39:24.562,4.258,1943,8.27353,70,41.0,1959.68,3080,Unknown
2023-04-14 11:40:39.640,4.275,1941,8.29873,72,41.0,2020.92,3080,Unknown
2023-04-14 11:41:20.399,4.282,1943,8.32016,73,41.0,2020.92,3080,Unknown
2023-04-14 11:41:41.983,4.245,1434,6.08872,73,41.2,2051.54,3080,Unknown
2023-04-14 11:42:46.013,4.246,1434,6.09274,74,40.8,2082.16,3080,Unknown
2023-04-14 11:44:13.646,4.312,1943,8.3824,75,41.2,2112.78,3080,Unknown
2023-04-14 11:45:14.264,4.323,1942,8.39587,76,41.2,2143.4,3080,Unknown
2023-04-14 11:46:23.756,4.339,1943,8.43356,77,41.2,2174.02,3080,Unknown
2023-04-14 11:46:45.848,4.345,1940,8.43064,78,41.2,2204.64,3080,Unknown
2023-04-14 11:47:07.665,4.346,1893,8.22833,78,41.2,2204.64,3080,Unknown
2023-04-14 11:47:29.524,4.345,1828,7.94665,79,41.2,2204.64,3080,Unknown
2023-04-14 11:47:51.182,4.345,1772,7.70267,79,41.0,2235.26,3080,Unknown
2023-04-14 11:48:13.067,4.344,1720,7.47553,80,40.9,2235.26,3080,Unknown
2023-04-14 11:48:34.847,4.343,1675,7.27633,80,40.9,2235.26,3080,Unknown
2023-04-14 11:48:56.628,4.341,1625,7.05572,80,40.8,2265.88,3080,Unknown
2023-04-14 11:49:18.496,4.339,1573,6.82868,80,40.7,2265.88,3080,Unknown
2023-04-14 11:49:40.321,4.339,1531,6.64595,81,40.6,2265.88,3080,Unknown
2023-04-14 11:50:02.053,4.338,1488,6.45511,81,40.6,2296.5,3080,Unknown
2023-04-14 11:51:15.885,4.349,1487,6.47015,82,40.4,2327.12,3080,Unknown
2023-04-14 11:52:33.297,4.362,1484,6.47485,83,40.2,2357.74,3080,Unknown
2023-04-14 11:53:25.756,4.373,1484,6.49384,84,40.1,2357.74,3080,Unknown
2023-04-14 11:54:47.314,4.387,1487,6.524,85,40.0,2388.36,3080,Unknown
2023-04-14 11:55:48.535,4.397,1487,6.54022,86,39.8,2418.98,3080,Unknown
2023-04-14 11:56:39.055,4.407,1487,6.55644,87,39.7,2449.6,3080,Unknown
2023-04-14 11:58:15.902,4.425,1485,6.57376,88,39.6,2480.22,3080,Unknown
2023-04-14 11:59:18.214,4.435,1485,6.58862,89,39.6,2510.84,3080,Unknown
2023-04-14 12:00:18.876,4.446,1484,6.60225,90,39.5,2541.46,3080,Unknown
2023-04-14 12:00:51.495,4.451,1486,6.61646,90,39.5,2541.46,3080,Unknown
2023-04-14 12:01:13.454,4.455,1483,6.61017,90,39.5,2572.08,3080,Unknown
2023-04-14 12:01:35.196,4.458,1466,6.5398,91,39.5,2572.08,3080,Unknown
2023-04-14 12:01:56.943,4.457,1425,6.35471,91,39.5,2572.08,3080,Unknown
2023-04-14 12:02:18.638,4.456,1386,6.17922,91,39.4,2572.08,3080,Unknown
2023-04-14 12:02:40.424,4.455,1345,5.99293,91,39.4,2602.7,3080,Unknown
2023-04-14 12:03:02.217,4.455,1304,5.8094,92,39.3,2602.7,3080,Unknown
2023-04-14 12:03:23.953,4.454,1276,5.68576,92,39.2,2602.7,3080,Unknown
2023-04-14 12:03:45.673,4.454,1244,5.54168,92,39.2,2602.7,3080,Unknown
2023-04-14 12:04:07.374,4.454,1220,5.43429,92,39.1,2633.32,3080,Unknown
2023-04-14 12:04:29.018,4.453,1181,5.26185,93,39.1,2633.32,3080,Unknown
2023-04-14 12:04:50.565,4.452,1150,5.12073,93,39.0,2633.32,3080,Unknown
2023-04-14 12:05:12.335,4.451,1127,5.01906,93,38.9,2633.32,3080,Unknown
2023-04-14 12:05:34.066,4.451,1098,4.88866,93,38.9,2663.94,3080,Unknown
2023-04-14 12:05:55.840,4.451,1077,4.79765,93,38.9,2663.94,3080,Unknown
2023-04-14 12:06:17.608,4.449,1029,4.58097,94,38.8,2663.94,3080,Unknown
2023-04-14 12:06:39.378,4.451,1032,4.59661,94,38.8,2663.94,3080,Unknown
2023-04-14 12:07:01.114,4.453,1029,4.58237,94,38.7,2694.56,3080,Unknown
2023-04-14 12:07:22.858,4.454,1028,4.57932,94,38.7,2694.56,3080,Unknown
2023-04-14 12:07:44.715,4.457,1026,4.57697,94,38.7,2694.56,3080,Unknown
2023-04-14 12:08:06.623,4.459,1028,4.58583,95,38.6,2694.56,3080,Unknown
2023-04-14 12:08:28.410,4.46,1006,4.4875,95,38.5,2694.56,3080,Unknown
2023-04-14 12:08:50.228,4.459,982,4.38035,95,38.5,2694.56,3080,Unknown
2023-04-14 12:09:12.120,4.458,961,4.28549,95,38.4,2725.18,3080,Unknown
2023-04-14 12:09:33.951,4.458,939,4.1889,95,38.4,2725.18,3080,Unknown
2023-04-14 12:09:55.751,4.458,911,4.06373,95,38.4,2725.18,3080,Unknown
2023-04-14 12:10:17.615,4.458,894,3.98619,96,38.3,2725.18,3080,Unknown
2023-04-14 12:10:39.355,4.457,875,3.90232,96,38.3,2725.18,3080,Unknown
2023-04-14 12:11:01.192,4.456,855,3.81034,96,38.2,2755.8,3080,Unknown
2023-04-14 12:11:22.951,4.456,836,3.72739,96,38.1,2755.8,3080,Unknown
2023-04-14 12:11:44.712,4.456,814,3.62812,96,38.0,2755.8,3080,Unknown
2023-04-14 12:12:06.549,4.456,793,3.53564,97,37.9,2755.8,3080,Unknown
2023-04-14 12:12:28.333,4.455,784,3.49542,97,37.7,2755.8,3080,Unknown
2023-04-14 12:12:50.031,4.454,758,3.37639,97,37.7,2755.8,3080,Unknown
2023-04-14 12:13:11.947,4.456,747,3.33303,97,37.5,2786.42,3080,Unknown
2023-04-14 12:13:33.737,4.449,672,2.99243,97,37.4,2786.42,3080,Unknown
2023-04-14 12:13:55.439,4.45,674,3.00261,97,37.2,2786.42,3080,Unknown
2023-04-14 12:14:17.325,4.452,671,2.99173,97,37.0,2786.42,3080,Unknown
2023-04-14 12:14:39.100,4.452,671,2.98901,98,37.0,2786.42,3080,Unknown
2023-04-14 12:15:00.983,4.454,674,3.00259,98,36.8,2786.42,3080,Unknown
2023-04-14 12:15:22.725,4.456,675,3.00802,98,36.7,2786.42,3080,Unknown
2023-04-14 12:15:44.504,4.457,675,3.01141,98,36.6,2786.42,3080,Unknown
2023-04-14 12:16:06.374,4.459,673,3.00188,98,36.5,2817.04,3080,Unknown
2023-04-14 12:16:28.160,4.46,673,3.00527,98,36.4,2817.04,3080,Unknown
2023-04-14 12:16:49.957,4.461,673,3.00323,98,36.3,2817.04,3080,Unknown
2023-04-14 12:17:11.821,4.463,672,3.00321,98,36.2,2817.04,3080,Unknown
2023-04-14 12:17:33.572,4.463,657,2.93511,99,36.1,2817.04,3080,Unknown
2023-04-14 12:17:55.313,4.463,645,2.87927,99,36.0,2817.04,3080,Unknown
2023-04-14 12:18:17.189,4.462,635,2.83369,99,35.9,2817.04,3080,Unknown
2023-04-14 12:18:38.989,4.462,615,2.74517,99,35.8,2847.66,3080,Unknown
2023-04-14 12:19:00.871,4.462,604,2.69615,99,35.7,2847.66,3080,Unknown
2023-04-14 12:19:22.634,4.463,590,2.63547,99,35.6,2847.66,3080,Unknown
2023-04-14 12:19:44.424,4.461,572,2.55397,99,35.6,2847.66,3080,Unknown
2023-04-14 12:20:06.239,4.462,561,2.50415,99,35.5,2847.66,3080,Unknown
2023-04-14 12:20:28.038,4.461,560,2.50223,99,35.4,2847.66,3080,Unknown
2023-04-14 12:20:49.797,4.46,547,2.44314,100,35.3,2847.66,3080,Unknown
2023-04-14 12:21:11.590,4.461,531,2.37018,100,35.2,2847.66,3080,Unknown
2023-04-14 12:21:33.363,4.461,522,2.32934,100,35.1,2878.28,3080,Unknown
2023-04-14 12:21:55.148,4.456,471,2.09963,100,35.0,2878.28,3080,Unknown
2023-04-14 12:23:19.716,4.459,469,2.09288,100,34.7,2878.28,3080,Unknown
2023-04-14 12:23:55.548,4.46,467,2.08382,100,34.6,2878.28,3080,Unknown

File: pixel_6a.csv
timestamp,voltage(V),current(mA),power(W),battery_percent,battery_temperature(Celsius),remaining_battery_charge(mAh),battery_capacity(mAh),battery_technology
19:30:08.484,3.314,3786,12.5476,1,34.1,170,4410,Li-ion
19:30:35.387,3.77,3979,15.0034,1,35.0,200,4410,Li-ion
19:32:23.470,3.999,3974,15.8948,4,38.4,320,4410,Li-ion
19:35:53.066,4.054,3517,14.2612,9,40.7,552,4410,Li-ion
19:37:27.318,4.071,3967,16.153,12,41.6,656,4410,Li-ion
19:40:10.158,4.099,3393,13.911,16,42.2,830,4410,Li-ion
19:42:59.079,4.11,3939,16.1921,20,41.8,1000,4410,Li-ion
19:45:24.054,4.093,3979,16.2863,23,42.2,1146,4410,Li-ion
19:48:08.137,4.149,3975,16.4962,27,41.8,1310,4410,Li-ion
19:50:08.051,4.116,3377,13.9031,29,42.1,1424,4410,Li-ion
19:53:23.046,4.13,3383,13.9736,34,42.6,1608,4410,Li-ion
19:56:42.834,4.065,2453,9.97449,37,40.7,1756,4410,Li-ion
20:00:49.029,4.077,2452,10.0001,41,40.0,1922,4410,Li-ion
20:02:08.862,4.185,3642,15.2426,42,41.1,1988,4410,Li-ion
20:02:28.938,4.183,3570,14.9372,43,41.6,2008,4410,Li-ion
20:02:49.000,4.183,3510,14.6849,43,41.7,2028,4410,Li-ion
20:03:08.977,4.186,3482,14.5791,44,41.9,2046,4410,Li-ion
20:03:28.806,4.18,3385,14.1506,44,42.0,2066,4410,Li-ion
20:04:25.367,4.185,3369,14.0995,45,42.1,2118,4410,Li-ion
20:04:46.472,4.185,3333,13.9517,45,42.1,2138,4410,Li-ion
20:05:06.483,4.185,3292,13.7791,46,42.2,2156,4410,Li-ion
20:05:26.380,4.122,2449,10.0963,47,42.0,2170,4410,Li-ion
20:08:02.104,4.127,2442,10.0815,49,40.9,2276,4410,Li-ion
20:08:55.276,4.13,2451,10.125,50,40.8,2314,4410,Li-ion
20:11:57.077,4.152,2454,10.1919,53,39.6,2438,4410,Li-ion
20:15:08.055,4.226,2994,12.6542,56,40.5,2592,4410,Li-ion
20:19:08.055,4.263,2991,12.753,61,40.8,2792,4410,Li-ion
20:21:47.239,4.286,2927,12.5486,64,41.0,2924,4410,Li-ion
20:22:07.703,4.287,2868,12.2957,64,41.0,2940,4410,Li-ion
20:22:27.876,4.285,2838,12.164,65,41.0,2956,4410,Li-ion
20:22:47.901,4.286,2799,11.9981,65,40.9,2972,4410,Li-ion
20:23:07.731,4.286,2763,11.8454,65,40.9,2986,4410,Li-ion
20:23:27.948,4.286,2724,11.678,66,40.8,3002,4410,Li-ion
20:23:47.810,4.288,2701,11.58564,66,40.7,3018,4410,Li-ion
20:24:07.936,4.287,2643,11.3311,66,40.6,3032,4410,Li-ion
20:24:27.782,4.287,2608,11.1824,67,40.6,3046,4410,Li-ion
20:24:47.584,4.287,2588,11.0966,67,40.5,3060,4410,Li-ion
20:25:07.445,4.287,2526,10.8327,67,40.5,3074,4410,Li-ion
20:25:27.485,4.287,2516,10.7872,68,40.5,3090,4410,Li-ion
20:25:47.320,4.286,2473,10.6012,68,40.6,3102,4410,Li-ion
20:26:07.443,4.286,2427,10.4029,68,40.6,3116,4410,Li-ion
20:26:27.262,4.287,2401,10.2942,69,40.5,3130,4410,Li-ion
20:26:47.171,4.287,2369,10.1562,69,40.5,3144,4410,Li-ion
20:27:07.044,4.288,2338,10.0272,69,40.4,3156,4410,Li-ion
20:27:26.753,4.289,2300,9.86604,69,40.3,3168,4410,Li-ion
20:27:46.929,4.289,2284,9.79634,69,40.3,3182,4410,Li-ion
20:28:06.814,4.288,2245,9.62656,70,40.1,3194,4410,Li-ion
20:28:27.000,4.287,2220,9.52116,70,40.1,3206,4410,Li-ion
20:28:46.891,4.287,2170,9.30279,70,40.1,3218,4410,Li-ion
20:29:07.014,4.289,2149,9.21867,71,39.9,3230,4410,Li-ion
20:29:26.791,4.289,2114,9.06721,71,39.9,3242,4410,Li-ion
20:30:08.080,4.295,2117,9.096,72,39.6,3268,4410,Li-ion
20:34:15.086,4.332,2119,9.18248,75,38.6,3412,4410,Li-ion
20:39:08.050,4.382,2115,9.2693,79,37.9,3586,4410,Li-ion
20:42:59.052,4.417,2108,9.31159,82,37.6,3722,4410,Li-ion
20:45:22.428,4.43,1926,8.53329,84,37.3,3802,4410,Li-ion
20:47:20.507,4.43,1763,7.81064,85,37.0,3864,4410,Li-ion
20:47:40.229,4.43,1722,7.63206,86,36.8,3872,4410,Li-ion
20:47:59.929,4.429,1705,7.55559,86,36.8,3882,4410,Li-ion
20:48:19.737,4.431,1672,7.41085,86,36.8,3892,4410,Li-ion
20:48:39.597,4.431,1636,7.25022,86,36.8,3900,4410,Li-ion
20:48:59.302,4.431,1634,7.2433,86,36.8,3910,4410,Li-ion
20:49:19.012,4.431,1580,7.00513,87,36.6,3918,4410,Li-ion
20:49:38.708,4.43,1570,6.95787,87,36.5,3926,4410,Li-ion
20:49:58.368,4.43,1535,6.80282,87,36.5,3936,4410,Li-ion
20:50:18.064,4.432,1532,6.79065,87,36.4,3944,4410,Li-ion
20:50:37.800,4.431,1499,6.64234,88,36.3,3952,4410,Li-ion
20:50:57.504,4.431,1474,6.53157,88,36.3,3960,4410,Li-ion
20:51:17.264,4.431,1464,6.49003,88,36.2,3968,4410,Li-ion
20:51:36.925,4.431,1424,6.31002,88,36.2,3976,4410,Li-ion
20:51:56.758,4.431,1414,6.2671,88,36.2,3984,4410,Li-ion
20:52:16.481,4.431,1387,6.14801,88,36.1,3992,4410,Li-ion
20:52:36.259,4.431,1362,6.03862,89,36.1,4000,4410,Li-ion
20:52:56.102,4.431,1334,5.91123,89,36.1,4006,4410,Li-ion
20:53:15.787,4.431,1332,5.90569,89,36.0,4014,4410,Li-ion
20:53:35.513,4.431,1318,5.84061,89,36.0,4022,4410,Li-ion
20:53:55.244,4.431,1286,5.70076,89,36.0,4028,4410,Li-ion
20:54:14.979,4.431,1277,5.66198,90,35.8,4036,4410,Li-ion
20:54:34.708,4.431,1254,5.55675,90,35.8,4042,4410,Li-ion
20:54:54.415,4.431,1230,5.45151,90,35.8,4048,4410,Li-ion
20:55:14.205,4.434,1228,5.44689,90,35.7,4056,4410,Li-ion
20:55:33.943,4.434,1199,5.31803,90,35.7,4062,4410,Li-ion
20:55:53.699,4.434,1182,5.24459,90,35.7,4068,4410,Li-ion
20:56:13.424,4.431,1161,5.14688,90,35.5,4076,4410,Li-ion
20:56:33.154,4.431,1143,5.06796,90,35.5,4082,4410,Li-ion
20:56:52.920,4.433,1123,4.98158,91,35.4,4088,4410,Li-ion
20:57:12.660,4.432,1123,4.98046,91,35.4,4094,4410,Li-ion
20:57:32.372,4.432,1090,4.83503,91,35.3,4100,4410,Li-ion
20:57:52.121,4.432,1073,4.75886,91,35.3,4106,4410,Li-ion
20:58:11.877,4.431,1068,4.73563,91,35.2,4112,4410,Li-ion
20:58:31.587,4.431,1048,4.64562,91,35.2,4118,4410,Li-ion
20:58:51.284,4.431,1022,4.53208,91,35.2,4124,4410,Li-ion
20:59:11.058,4.433,1021,4.5272,92,35.1,4130,4410,Li-ion
20:59:30.805,4.433,1015,4.50088,92,35.1,4134,4410,Li-ion
20:59:50.496,4.433,993,4.40391,92,35.1,4140,4410,Li-ion
21:00:10.256,4.432,994,4.40568,92,35.0,4146,4410,Li-ion
21:00:29.950,4.432,984,4.36413,92,35.0,4152,4410,Li-ion
21:00:49.731,4.432,961,4.26303,92,35.0,4156,4410,Li-ion
21:01:09.480,4.432,945,4.18824,92,34.6,4162,4410,Li-ion
21:01:29.188,4.431,924,4.09591,93,34.6,4166,4410,Li-ion
21:01:48.871,4.431,918,4.07098,93,34.6,4172,4410,Li-ion
21:02:08.563,4.433,909,4.02987,93,34.3,4176,4410,Li-ion
21:02:28.260,4.433,896,3.97446,93,34.3,4182,4410,Li-ion
21:02:47.901,4.432,871,3.86415,93,34.2,4186,4410,Li-ion
21:03:07.617,4.432,876,3.88492,93,34.2,4192,4410,Li-ion
21:03:27.265,4.433,867,3.84424,93,34.1,4196,4410,Li-ion
21:03:46.982,4.433,826,3.66415,93,34.1,4200,4410,Li-ion
21:04:06.680,4.433,825,3.66,93,34.1,4206,4410,Li-ion
21:04:26.378,4.434,822,3.64835,94,33.8,4210,4410,Li-ion
21:04:46.064,4.434,809,3.59015,94,33.8,4214,4410,Li-ion
21:05:05.736,4.434,798,3.54166,94,33.8,4218,4410,Li-ion
21:05:25.413,4.433,784,3.47852,94,33.4,4222,4410,Li-ion
21:05:45.073,4.433,769,3.41202,94,33.4,4228,4410,Li-ion
21:06:04.736,4.434,762,3.380925,94,33.3,4232,4410,Li-ion
21:06:24.368,4.433,768,3.4051,94,33.3,4236,4410,Li-ion
21:06:44.078,4.433,748,3.31921,94,33.3,4240,4410,Li-ion
21:07:03.751,4.433,729,3.2347,94,33.3,4244,4410,Li-ion
21:07:23.468,4.435,726,3.22092,94,33.0,4248,4410,Li-ion
21:07:43.139,4.435,713,3.16409,94,33.0,4252,4410,Li-ion
21:08:02.855,4.434,719,3.18971,95,33.0,4256,4410,Li-ion
21:08:22.565,4.434,698,3.09687,95,32.9,4260,4410,Li-ion
21:08:42.303,4.434,680,3.01927,95,32.9,4264,4410,Li-ion
21:09:01.964,4.434,697,3.092715,95,32.9,4266,4410,Li-ion
21:09:21.628,4.434,675,2.9971,95,32.8,4270,4410,Li-ion
21:09:41.315,4.432,658,2.91681,95,32.8,4274,4410,Li-ion
21:10:01.019,4.432,643,2.85033,95,32.8,4278,4410,Li-ion
21:10:20.707,4.432,639,2.83371,95,32.8,4282,4410,Li-ion
21:10:40.413,4.432,650,2.88218,95,32.8,4286,4410,Li-ion
21:11:00.105,4.432,621,2.75338,95,32.8,4288,4410,Li-ion
21:11:19.811,4.433,626,2.77894,95,32.7,4292,4410,Li-ion
21:11:39.505,4.434,616,2.73245,96,32.8,4296,4410,Li-ion
21:11:59.211,4.434,608,2.6992,96,32.8,4298,4410,Li-ion
21:12:18.912,4.434,611,2.71167,96,32.8,4302,4410,Li-ion
21:12:38.639,4.434,607,2.69227,96,32.8,4306,4410,Li-ion
21:12:58.329,4.434,601,2.66871,96,32.8,4308,4410,Li-ion
21:13:18.007,4.432,591,2.6218,96,32.8,4312,4410,Li-ion
21:13:37.658,4.435,578,2.56537,96,32.7,4316,4410,Li-ion
21:13:57.365,4.435,586,2.60279,96,32.7,4318,4410,Li-ion
21:14:17.096,4.434,568,2.52045,96,32.8,4322,4410,Li-ion
21:14:36.756,4.434,566,2.51075,96,32.8,4324,4410,Li-ion
21:14:56.433,4.434,554,2.45948,96,32.8,4328,4410,Li-ion
21:15:16.107,4.435,555,2.461425,96,32.7,4330,4410,Li-ion
21:15:35.788,4.435,542,2.4046,96,32.7,4334,4410,Li-ion
21:15:55.485,4.435,527,2.34085,96,32.7,4336,4410,Li-ion
21:16:15.245,4.433,519,2.30377,97,32.7,4340,4410,Li-ion
21:16:34.948,4.434,524,2.32646,97,32.7,4342,4410,Li-ion
21:16:54.604,4.434,522,2.31538,97,32.7,4346,4410,Li-ion
21:17:59.071,4.435,487,2.16206,98,32.7,4354,4410,Li-ion
21:18:18.560,4.435,477,2.1191,98,32.6,4358,4410,Li-ion
21:18:38.152,4.435,461,2.04564,98,32.6,4360,4410,Li-ion
21:18:57.738,4.435,479,2.12603,98,32.6,4362,4410,Li-ion
21:19:17.750,4.434,489,2.16989,98,32.7,4366,4410,Li-ion
21:19:37.866,4.434,487,2.16296,98,32.7,4368,4410,Li-ion
21:19:57.715,4.434,468,2.07705,98,32.7,4370,4410,Li-ion
21:20:17.286,4.433,471,2.09043,99,33.0,4372,4410,Li-ion
21:20:37.454,4.434,475,2.1103,99,33.1,4376,4410,Li-ion
21:20:57.620,4.434,454,2.01331,99,33.1,4378,4410,Li-ion
21:21:18.034,4.433,454,2.01563,99,33.2,4380,4410,Li-ion
21:21:37.888,4.433,449,1.99346,99,33.2,4384,4410,Li-ion
21:21:57.766,4.433,451,2.00316,99,33.2,4386,4410,Li-ion
21:22:17.570,4.435,462,2.05119,100,33.4,4388,4410,Li-ion
21:22:37.426,4.435,430,1.90843,100,33.4,4390,4410,Li-ion
21:22:57.307,4.435,430,1.90982,100,33.4,4394,4410,Li-ion
21:23:17.158,4.434,430,1.90939,100,33.4,4396,4410,Li-ion
21:23:37.011,4.435,434,1.92784,100,33.4,4398,4410,Li-ion
21:23:56.786,4.435,424,1.88071,100,33.4,4400,4410,Li-ion
21:24:16.533,4.434,419,1.86089,100,33.3,4402,4410,Li-ion
21:24:36.250,4.434,402,1.78607,100,33.3,4404,4410,Li-ion
21:24:56.022,4.434,429,1.90246,100,33.3,4408,4410,Li-ion
21:25:15.818,4.434,403,1.78884,100,33.3,4410,4410,Li-ion
21:25:35.680,4.434,406,1.80131,100,33.3,4412,4410,Li-ion
21:25:55.526,4.434,396,1.75836,100,33.3,4414,4410,Li-ion
21:26:15.359,4.436,397,1.76192,100,33.2,4416,4410,Li-ion
21:26:35.208,4.436,379,1.68291,100,33.2,4418,4410,Li-ion
21:26:55.094,4.436,389,1.72588,100,33.2,4420,4410,Li-ion
21:27:14.920,4.436,373,1.657955,100,33.1,4422,4410,Li-ion
21:27:21.195,4.436,377,1.6732,100,33.1,4424,4410,Li-ion