Folder: Phone-Battery/dataset (part 3)

File: s21_fe.txt
voltage(V),current(mA),battery_percent,battery_temperature(Celsius),remaining_battery_charge(mAh),battery_capacity(mAh),battery_technology
3.36,1595,1,37.1,0,4370,Li-ion
3.517,-4887,1,36.7,0,4370,Li-ion
3.745,-4863,1,37.5,8.264,4370,Li-ion
3.807,-4891,1,38.1,37.188,4370,Li-ion
3.851,-4877,1,38.5,61.98,4370,Li-ion
3.885,-4866,2,38.7,90.904,4370,Li-ion
3.911,-4886,3,38.9,119.828,4370,Li-ion
3.932,-4945,3,39.1,148.752,4370,Li-ion
3.935,-4830,4,39.1,161.148,4370,Li-ion
3.946,-4845,4,39.3,190.072,4370,Li-ion
3.949,-4757,5,39.4,218.996,4370,Li-ion
3.951,-4888,6,39.6,243.788,4370,Li-ion
3.958,-4958,6,39.7,272.712,4370,Li-ion
3.959,-4820,7,39.9,301.636,4370,Li-ion
3.961,-4818,7,39.9,314.032,4370,Li-ion
3.966,-4826,8,40.1,342.956,4370,Li-ion
3.968,-4848,9,40.2,371.88,4370,Li-ion
3.973,-4905,10,40.4,396.672,4370,Li-ion
3.978,-4811,10,40.6,425.596,4370,Li-ion
3.983,-4778,11,40.7,454.52,4370,Li-ion
3.978,-4859,11,40.8,466.916,4370,Li-ion
3.989,-4863,12,40.9,495.84,4370,Li-ion
3.993,-4920,13,40.3,524.764,4370,Li-ion
3.876,-4706,13,40,549.556,4370,Li-ion
3.997,-4688,14,40,574.348,4370,Li-ion
3.995,-4758,14,40.4,599.14,4370,Li-ion
4.007,-4824,15,40.5,615.668,4370,Li-ion
4.013,-4815,15,40.7,640.46,4370,Li-ion
4.016,-4827,16,40.9,669.384,4370,Li-ion
4.02,-4730,17,41,698.308,4370,Li-ion
4.022,-4822,17,41.2,727.232,4370,Li-ion
4.025,-4328,18,41.3,752.024,4370,Li-ion
3.89,-4582,18,41.3,768.552,4370,Li-ion
4.023,-4844,19,41.1,780.948,4370,Li-ion
4.032,-4863,19,41.3,809.872,4370,Li-ion
3.9,-1875,20,41.5,838.796,4370,Li-ion
3.894,-1908,20,40.8,855.324,4370,Li-ion
3.888,-1839,21,40.1,863.588,4370,Li-ion
3.889,-1881,21,40,867.72,4370,Li-ion
3.889,-1869,21,39.6,880.116,4370,Li-ion
4.025,-4888,21,39.5,888.38,4370,Li-ion
4.041,-4807,22,40,913.172,4370,Li-ion
4.048,-4791,23,40.4,942.096,4370,Li-ion
4.05,-4802,23,40.8,971.02,4370,Li-ion
4.053,-4684,24,40.9,983.416,4370,Li-ion
4.055,-4816,24,41.2,1012.34,4370,Li-ion
4.057,-4743,25,41.4,1041.264,4370,Li-ion
3.927,-1857,26,41.5,1070.188,4370,Li-ion
3.916,-1825,26,40.7,1082.584,4370,Li-ion
3.91,-1850,26,40.1,1094.98,4370,Li-ion
3.912,-1825,26,39.9,1099.112,4370,Li-ion
3.91,-1731,27,39.6,1107.376,4370,Li-ion
3.979,-4663,27,39.4,1119.772,4370,Li-ion
4.049,-4886,27,39.8,1140.432,4370,Li-ion
4.063,-4881,28,40.5,1165.224,4370,Li-ion
4.065,-4858,29,40.9,1194.148,4370,Li-ion
4.072,-4700,29,41.2,1223.072,4370,Li-ion
4.071,-4809,30,41.4,1235.468,4370,Li-ion
3.936,-1780,30,41.4,1264.392,4370,Li-ion
3.922,-1851,31,40.7,1276.788,4370,Li-ion
3.922,-1820,31,40.2,1285.052,4370,Li-ion
3.921,-1859,31,39.9,1293.316,4370,Li-ion
3.92,-1813,31,39.6,1305.712,4370,Li-ion
4.054,-4709,32,39.4,1313.976,4370,Li-ion
4.067,-4823,32,39.7,1322.24,4370,Li-ion
4.07,-4655,33,40.2,1351.164,4370,Li-ion
4.071,-4603,33,40.7,1380.088,4370,Li-ion
4.068,-4507,34,41,1404.88,4370,Li-ion
4.069,-4529,34,41.1,1429.672,4370,Li-ion
4.066,-4419,35,41.3,1458.596,4370,Li-ion
4.07,-4398,36,41.4,1483.388,4370,Li-ion
3.974,-2084,36,41.5,1508.18,4370,Li-ion
3.967,-2143,36,41.2,1516.444,4370,Li-ion
3.958,-2150,37,40.7,1528.84,4370,Li-ion
3.961,-2142,37,40.3,1541.236,4370,Li-ion
3.939,-2160,37,40,1553.632,4370,Li-ion
3.961,-2154,38,39.8,1566.028,4370,Li-ion
3.961,-2094,38,39.6,1578.424,4370,Li-ion
3.961,-2071,38,39.5,1590.82,4370,Li-ion
4.074,-4280,38,39.5,1594.952,4370,Li-ion
4.069,-4129,39,40,1619.744,4370,Li-ion
4.069,-4015,40,40.2,1640.404,4370,Li-ion
4.069,-3946,40,40.4,1665.196,4370,Li-ion
4.068,-3949,41,40.5,1689.988,4370,Li-ion
4.072,-3897,41,40.6,1710.648,4370,Li-ion
4.075,-3861,42,40.6,1731.308,4370,Li-ion
4.077,-3894,42,40.7,1743.704,4370,Li-ion
4.079,-3958,43,40.8,1768.496,4370,Li-ion
4.081,-3907,43,40.9,1789.156,4370,Li-ion
4.086,-3899,44,41,1813.948,4370,Li-ion
4.089,-3925,44,41,1834.608,4370,Li-ion
4.09,-3868,45,41.1,1859.4,4370,Li-ion
4.085,-3902,45,41.2,1880.06,4370,Li-ion
4.095,-3690,46,41.3,1904.852,4370,Li-ion
4.095,-3938,46,41.3,1913.116,4370,Li-ion
4.085,-3511,47,41.4,1937.908,4370,Li-ion
3.998,-1837,47,41.7,1954.436,4370,Li-ion
4,-1903,47,41.4,1966.832,4370,Li-ion
4,-1915,48,41.1,1979.228,4370,Li-ion
3.999,-1913,48,40.8,1987.492,4370,Li-ion
3.995,-1934,48,40.7,1995.756,4370,Li-ion
3.999,-1917,48,40.4,2004.02,4370,Li-ion
4.002,-1914,48,40.2,2016.416,4370,Li-ion
4.002,-1903,49,40,2024.68,4370,Li-ion
4.005,-1922,49,39.8,2037.076,4370,Li-ion
4.006,-1914,49,39.7,2049.472,4370,Li-ion
4.006,-1878,50,39.6,2057.736,4370,Li-ion
4.05,-3757,50,39.4,2070.132,4370,Li-ion
4.105,-3893,50,39.5,2074.264,4370,Li-ion
4.115,-3851,51,39.8,2099.056,4370,Li-ion
4.12,-3935,51,40,2119.716,4370,Li-ion
4.127,-3938,52,40.2,2144.508,4370,Li-ion
4.13,-3977,52,40.4,2165.168,4370,Li-ion
4.131,-3880,53,40.6,2189.96,4370,Li-ion
4.137,-3933,53,40.7,2210.62,4370,Li-ion
4.141,-3962,54,40.7,2223.016,4370,Li-ion
4.144,-3938,54,40.9,2243.676,4370,Li-ion
4.147,-3852,55,41,2268.468,4370,Li-ion
4.15,-3898,55,41,2289.128,4370,Li-ion
4.153,-3923,56,41.1,2313.92,4370,Li-ion
4.159,-3947,56,41.2,2334.58,4370,Li-ion
4.132,-3548,57,41.3,2359.372,4370,Li-ion
4.159,-3309,57,41.5,2380.032,4370,Li-ion
4.077,-1926,58,41.6,2392.428,4370,Li-ion
4.069,-1895,58,41.2,2404.824,4370,Li-ion
4.067,-1890,58,40.8,2417.22,4370,Li-ion
4.07,-1827,58,40.5,2425.484,4370,Li-ion
4.067,-1913,59,40.2,2437.88,4370,Li-ion
4.059,-1520,59,40,2446.144,4370,Li-ion
4.072,-1851,59,39.9,2458.54,4370,Li-ion
4.071,-4037,59,39.5,2462.672,4370,Li-ion
4.176,-3898,60,38.6,2475.068,4370,Li-ion
4.19,-3987,60,39,2499.86,4370,Li-ion
4.198,-4025,61,39.4,2524.652,4370,Li-ion
4.193,-3846,61,39.6,2545.312,4370,Li-ion
4.205,-3928,62,40,2565.972,4370,Li-ion
4.201,-3689,62,40.3,2590.764,4370,Li-ion
4.203,-4057,63,40.6,2599.028,4370,Li-ion
4.195,-4006,63,40.9,2623.82,4370,Li-ion
4.209,-3885,64,41.1,2644.48,4370,Li-ion
4.214,-3890,64,41.3,2665.14,4370,Li-ion
4.13,-1898,65,41.6,2685.8,4370,Li-ion
4.084,-1762,65,41.3,2698.196,4370,Li-ion
4.122,-1283,65,41.2,2702.328,4370,Li-ion
4.076,-1845,65,41.1,2714.724,4370,Li-ion
4.112,-1168,66,41.1,2722.988,4370,Li-ion
4.123,-1910,66,41,2731.252,4370,Li-ion
4.125,-1960,66,40.8,2739.516,4370,Li-ion
4.089,-1919,66,40.5,2751.912,4370,Li-ion
4.131,-1779,67,40.4,2760.176,4370,Li-ion
4.135,-1455,67,40.2,2768.44,4370,Li-ion
4.136,-1803,67,40.1,2776.704,4370,Li-ion
4.129,-1790,67,40,2789.1,4370,Li-ion
4.14,-1890,67,39.9,2797.364,4370,Li-ion
4.144,-1372,68,39.8,2809.76,4370,Li-ion
4.141,-1903,68,39.6,2818.024,4370,Li-ion
4.148,-3971,68,39.5,2826.288,4370,Li-ion
4.25,-3966,69,39.6,2838.684,4370,Li-ion
4.254,-3979,69,39.9,2859.344,4370,Li-ion
4.271,-3873,70,40,2884.136,4370,Li-ion
4.27,-3762,70,40.1,2904.796,4370,Li-ion
4.269,-3564,71,40.2,2929.588,4370,Li-ion
4.27,-3462,71,40.2,2937.852,4370,Li-ion
4.268,-3481,71,40.2,2958.512,4370,Li-ion
4.267,-3325,72,40.1,2979.172,4370,Li-ion
4.268,-3261,72,40.1,2999.832,4370,Li-ion
4.269,-2826,73,40,3016.36,4370,Li-ion
4.265,-3045,73,40,3037.02,4370,Li-ion
4.269,-3016,73,40,3045.284,4370,Li-ion
4.269,-2984,74,40,3061.812,4370,Li-ion
4.278,-2743,74,39.9,3078.34,4370,Li-ion
4.282,-3090,75,39.9,3099,4370,Li-ion
4.29,-3122,75,39.9,3115.528,4370,Li-ion
4.291,-3080,76,39.9,3132.056,4370,Li-ion
4.292,-3101,76,39.8,3140.32,4370,Li-ion
4.3,-3175,76,39.8,3160.98,4370,Li-ion
4.306,-3140,77,39.8,3177.508,4370,Li-ion
4.31,-3169,77,39.8,3194.036,4370,Li-ion
4.31,-3174,78,39.8,3214.696,4370,Li-ion
4.32,-3124,78,39.8,3231.224,4370,Li-ion
4.322,-3113,78,39.7,3239.488,4370,Li-ion
4.329,-3135,79,39.7,3260.148,4370,Li-ion
4.332,-3046,79,39.7,3276.676,4370,Li-ion
4.339,-3154,80,39.7,3293.204,4370,Li-ion
4.345,-3170,80,39.6,3313.864,4370,Li-ion
4.349,-3184,80,39.6,3330.392,4370,Li-ion
4.35,-2978,81,39.6,3351.052,4370,Li-ion
4.357,-3042,81,39.6,3359.316,4370,Li-ion
4.36,-3174,81,39.6,3375.844,4370,Li-ion
4.367,-3108,82,39.6,3392.372,4370,Li-ion
4.349,-2955,82,39.6,3413.032,4370,Li-ion
4.369,-3160,83,39.6,3429.56,4370,Li-ion
4.384,-3174,83,39.6,3446.088,4370,Li-ion
4.385,-3147,83,39.6,3458.484,4370,Li-ion
4.391,-3137,84,39.6,3475.012,4370,Li-ion
4.395,-3165,84,39.6,3491.54,4370,Li-ion
4.399,-3119,85,39.6,3512.2,4370,Li-ion
4.406,-3116,85,39.6,3528.728,4370,Li-ion
4.411,-2986,86,39.6,3545.256,4370,Li-ion
4.415,-3112,86,39.6,3557.652,4370,Li-ion
4.417,-3087,86,39.6,3574.18,4370,Li-ion
4.417,-2947,87,39.5,3590.708,4370,Li-ion
4.414,-2841,87,39.5,3611.368,4370,Li-ion
4.416,-2797,87,39.4,3623.764,4370,Li-ion
4.415,-2683,88,39.4,3640.292,4370,Li-ion
4.414,-2668,88,39.4,3648.556,4370,Li-ion
4.417,-2563,88,39.3,3665.084,4370,Li-ion
4.417,-2423,89,39.2,3681.612,4370,Li-ion
4.413,-2378,89,39.1,3694.008,4370,Li-ion
4.417,-2401,89,39,3710.536,4370,Li-ion
4.417,-2415,90,38.9,3722.932,4370,Li-ion
4.415,-2297,90,38.9,3731.196,4370,Li-ion
4.417,-2243,90,38.8,3743.592,4370,Li-ion
4.417,-2112,91,38.7,3755.988,4370,Li-ion
4.413,-2087,91,38.7,3768.384,4370,Li-ion
4.416,-2020,91,38.6,3780.78,4370,Li-ion
4.416,-2040,91,38.5,3793.176,4370,Li-ion
4.4,-1712,92,38.5,3801.44,4370,Li-ion
4.395,-1627,92,39.3,3813.836,4370,Li-ion
4.393,-1902,92,39.5,3817.968,4370,Li-ion
4.397,-1968,92,39.9,3826.232,4370,Li-ion
4.416,-1906,93,39.9,3834.496,4370,Li-ion
4.418,-1875,93,39.7,3846.892,4370,Li-ion
4.4,-1283,94,38.2,3904.74,4370,Li-ion
4.4,-1161,95,37.9,3925.4,4370,Li-ion
4.4,-1209,95,38.4,3929.532,4370,Li-ion
4.4,-1070,96,37.6,3962.588,4370,Li-ion
4.401,-987,96,37.1,3991.512,4370,Li-ion
4.401,-959,96,37.4,3995.644,4370,Li-ion
4.401,-962,96,37.7,3999.776,4370,Li-ion
4.402,-925,97,37.8,4003.908,4370,Li-ion
4.4,-918,97,38,4008.04,4370,Li-ion
4.401,-48,97,38,4016.304,4370,Li-ion
4.337,-980,97,37.9,4020.436,4370,Li-ion
4.391,-990,97,38.3,4020.436,4370,Li-ion
4.399,-904,97,37.9,4024.568,4370,Li-ion
4.401,-952,98,37.4,4045.228,4370,Li-ion
4.401,-815,98,37.2,4078.284,4370,Li-ion
4.4,-781,99,37.4,4103.076,4370,Li-ion
4.402,-779,99,37.5,4107.208,4370,Li-ion
4.401,-767,99,37.6,4127.868,4370,Li-ion
4.401,-728,100,37.7,4132,4370,Li-ion
4.4,-740,100,37.7,4132,4370,Li-ion
4.4,-737,100,37.7,4132,4370,Li-ion
4.4,-724,100,37.7,4132,4370,Li-ion
4.4,-703,100,37.7,4132,4370,Li-ion
4.4,-701,100,37.7,4132,4370,Li-ion
4.4,-691,100,37.7,4132,4370,Li-ion
4.4,-661,100,37.7,4132,4370,Li-ion

File: samsung_a70-data.csv
timestamp,voltage(V),current(mA),power(W),battery_percent,battery_temperature(Celsius),remaining_battery_charge(mAh),battery_capacity(mAh),battery_technology
2023-04-14 17:12:33.937,3.733,2314,8.63816,1,36.9,0.0,4400,Li-ion
2023-04-14 17:13:09.240,3.846,1978,7.607388,2,36.7,0.0,4400,Li-ion
2023-04-14 17:13:46.122,4.11,4033,16.5756,2,37.7,0.0,4400,Li-ion
2023-04-14 17:14:33.355,3.929,1973,7.751917,3,36.5,0.0,4400,Li-ion
2023-04-14 17:15:09.565,4.152,4033,16.745,3,37.6,0.0,4400,Li-ion
2023-04-14 17:15:44.614,3.931,1970,7.74407,4,36.4,0.0,4400,Li-ion
2023-04-14 17:16:36.283,4.178,4031,16.8415,5,37.9,34.68,4400,Li-ion
2023-04-14 17:17:11.764,3.952,1803,7.125456,5,36.6,34.68,4400,Li-ion
2023-04-14 17:17:55.838,3.968,1980,7.85664,6,36.9,69.36,4400,Li-ion
2023-04-14 17:18:30.809,4.156,4005,16.6448,7,37.8,104.04,4400,Li-ion
2023-04-14 17:19:07.262,3.961,1768,7.003048,8,36.8,104.04,4400,Li-ion
2023-04-14 17:19:44.017,3.988,2058,8.2073,9,37.2,138.72,4400,Li-ion
2023-04-14 17:20:18.749,3.961,1895,7.506095,9,36.8,138.72,4400,Li-ion
2023-04-14 17:21:03.786,3.956,1860,7.35816,11,37.0,208.08,4400,Li-ion
2023-04-14 17:21:38.397,4.173,3974,16.5835,12,38.0,242.76,4400,Li-ion
2023-04-14 17:22:16.165,3.981,1976,7.86646,12,37.0,242.76,4400,Li-ion
2023-04-14 17:22:51.804,3.999,2025,8.097975,13,37.4,277.44,4400,Li-ion
2023-04-14 17:23:26.555,3.984,1907,7.597488,14,36.9,277.44,4400,Li-ion
2023-04-14 17:24:01.800,4.0,1638,6.552,15,37.0,312.12,4400,Li-ion
2023-04-14 17:24:36.418,4.208,4033,16.9709,16,38.1,346.8,4400,Li-ion
2023-04-14 17:25:21.749,3.984,1723,6.86443,17,37.1,346.8,4400,Li-ion
2023-04-14 17:25:56.300,3.979,1697,6.75236,18,37.0,416.16,4400,Li-ion
2023-04-14 17:26:44.084,4.017,1881,7.555977,19,37.2,450.84,4400,Li-ion
2023-04-14 17:27:18.614,4.008,1789,7.170312,20,37.1,450.84,4400,Li-ion
2023-04-14 17:28:40.617,4.236,3827,16.2112,21,38.5,485.52,4400,Li-ion
2023-04-14 17:29:38.190,4.051,2020,8.18302,23,37.7,554.88,4400,Li-ion
2023-04-14 17:30:12.934,4.01,1823,7.31023,25,37.5,624.24,4400,Li-ion
2023-04-14 17:30:47.735,3.942,1164,4.588488,25,37.5,624.24,4400,Li-ion
2023-04-14 17:31:23.342,3.934,1123,4.41788,26,37.5,624.24,4400,Li-ion
2023-04-14 17:31:58.332,3.979,1217,4.842443,26,37.4,658.92,4400,Li-ion
2023-04-14 17:32:47.190,4.018,1531,6.151558,26,37.6,658.92,4400,Li-ion
2023-04-14 17:33:21.776,4.027,1815,7.309005,27,37.5,693.6,4400,Li-ion
2023-04-14 17:34:01.010,4.219,3632,15.3234,28,38.7,728.28,4400,Li-ion
2023-04-14 17:34:36.603,4.036,1759,7.09932,28,37.7,728.28,4400,Li-ion
2023-04-14 17:35:11.226,4.024,1809,7.27942,29,37.6,762.96,4400,Li-ion
2023-04-14 17:35:45.980,4.049,1974,7.992726,29,37.7,762.96,4400,Li-ion
2023-04-14 17:36:20.825,4.03,1809,7.29027,30,37.7,797.64,4400,Li-ion
2023-04-14 17:37:02.875,4.228,3634,15.3646,30,38.7,797.64,4400,Li-ion
2023-04-14 17:37:37.572,4.018,1888,7.58598,31,37.9,832.32,4400,Li-ion
2023-04-14 17:38:12.194,4.023,1757,7.06841,32,37.9,867.0,4400,Li-ion
2023-04-14 17:38:52.373,4.217,3585,15.1179,32,38.8,867.0,4400,Li-ion
2023-04-14 17:39:32.063,4.051,1905,7.717155,33,37.9,901.68,4400,Li-ion
2023-04-14 17:40:06.919,4.038,1769,7.143222,33,37.8,901.68,4400,Li-ion
2023-04-14 17:40:46.567,4.231,3527,14.9227,34,38.9,936.36,4400,Li-ion
2023-04-14 17:42:09.006,4.223,3326,14.0457,36,39.0,1005.72,4400,Li-ion
2023-04-14 17:43:34.555,4.219,3222,13.5936,39,39.2,1109.76,4400,Li-ion
2023-04-14 17:44:23.920,4.006,1120,4.48672,39,38.5,1109.76,4400,Li-ion
2023-04-14 17:44:58.560,4.007,1482,5.938374,41,38.5,1179.12,4400,Li-ion
2023-04-14 17:45:33.165,3.977,1092,4.342884,42,38.4,1179.12,4400,Li-ion
2023-04-14 17:46:07.867,3.99,1191,4.75209,42,38.4,1179.12,4400,Li-ion
2023-04-14 17:46:42.155,3.965,1342,5.32103,42,38.4,1213.8,4400,Li-ion
2023-04-14 17:47:17.466,3.993,1118,4.464174,42,38.4,1213.8,4400,Li-ion
2023-04-14 17:47:52.469,3.989,907,3.618023,43,38.4,1213.8,4400,Li-ion
2023-04-14 17:48:26.772,4.017,1158,4.651686,43,38.3,1213.8,4400,Li-ion
2023-04-14 17:49:01.059,3.991,789,3.148899,44,38.3,1248.48,4400,Li-ion
2023-04-14 17:49:35.411,4.008,1348,5.40278,44,38.3,1248.48,4400,Li-ion
2023-04-14 17:50:10.032,3.891,566,2.202306,45,38.3,1283.16,4400,Li-ion
2023-04-14 17:50:44.713,3.947,1087,4.290389,45,38.4,1283.16,4400,Li-ion
2023-04-14 17:51:19.186,4.059,1630,6.61617,45,38.4,1283.16,4400,Li-ion
2023-04-14 17:51:53.750,3.983,978,3.895374,46,38.4,1317.84,4400,Li-ion
2023-04-14 17:52:48.037,3.98,875,3.4825,46,38.4,1317.84,4400,Li-ion
2023-04-14 17:53:22.551,4.064,1665,6.76656,48,38.2,1352.52,4400,Li-ion
2023-04-14 17:53:57.232,4.079,1778,7.25246,49,38.0,1387.2,4400,Li-ion
2023-04-14 17:54:35.972,3.903,654,2.552562,49,38.3,1387.2,4400,Li-ion
2023-04-14 17:55:10.499,4.22,3221,13.59262,50,38.9,1421.88,4400,Li-ion
2023-04-14 17:56:26.710,4.257,3218,13.699,52,39.1,1456.56,4400,Li-ion
2023-04-14 17:57:03.114,4.115,1651,6.793865,53,38.4,1525.92,4400,Li-ion
2023-04-14 17:57:37.791,4.099,1733,7.10357,53,38.3,1525.92,4400,Li-ion
2023-04-14 17:58:59.841,4.271,3218,13.7441,54,39.2,1560.6,4400,Li-ion
2023-04-14 18:00:09.739,4.117,1584,6.52133,57,38.9,1664.64,4400,Li-ion
2023-04-14 18:00:44.734,4.13,1849,7.63637,58,38.7,1664.64,4400,Li-ion
2023-04-14 18:01:19.371,4.116,1730,7.12068,59,38.7,1699.32,4400,Li-ion
2023-04-14 18:01:53.971,4.28,3221,13.78588,59,39.4,1699.32,4400,Li-ion
2023-04-14 18:02:28.688,4.28,3119,13.3493,60,39.4,1734.0,4400,Li-ion
2023-04-14 18:03:03.468,4.285,3122,13.37777,60,39.5,1734.0,4400,Li-ion
2023-04-14 18:04:02.714,4.281,3022,12.9372,62,39.6,1803.36,4400,Li-ion
2023-04-14 18:05:02.466,4.28,2918,12.48904,64,39.7,1838.04,4400,Li-ion
2023-04-14 18:06:13.602,4.282,2816,12.0581,65,39.8,1907.4,4400,Li-ion
2023-04-14 18:06:48.204,4.166,1756,7.315496,67,39.4,1942.08,4400,Li-ion
2023-04-14 18:07:22.881,4.152,1513,6.281976,67,39.3,1942.08,4400,Li-ion
2023-04-14 18:07:57.491,4.12,1548,6.37776,68,39.2,1976.76,4400,Li-ion
2023-04-14 18:08:34.228,4.199,1997,8.385403,69,39.3,2011.44,4400,Li-ion
2023-04-14 18:09:08.934,4.17,1755,7.31835,69,39.1,2011.44,4400,Li-ion
2023-04-14 18:09:43.558,4.172,1584,6.608448,70,39.1,2011.44,4400,Li-ion
2023-04-14 18:10:18.211,4.282,2812,12.041,70,39.6,2011.44,4400,Li-ion
2023-04-14 18:11:10.907,4.281,2608,11.1648,71,39.5,2080.8,4400,Li-ion
2023-04-14 18:12:07.511,4.278,2506,10.7207,72,39.5,2115.48,4400,Li-ion
2023-04-14 18:12:57.764,4.201,1718,7.21732,73,39.1,2150.16,4400,Li-ion
2023-04-14 18:13:32.235,4.172,1394,5.81577,73,39.0,2150.16,4400,Li-ion
2023-04-14 18:14:06.782,4.184,1555,6.50612,74,39.0,2184.84,4400,Li-ion
2023-04-14 18:14:41.454,4.221,1864,7.867944,74,39.0,2184.84,4400,Li-ion
2023-04-14 18:15:16.186,4.206,1666,7.007196,76,39.0,2219.52,4400,Li-ion
2023-04-14 18:15:50.963,4.195,1596,6.69522,77,38.9,2254.2,4400,Li-ion
2023-04-14 18:16:42.867,4.285,2306,9.88121,77,39.2,2254.2,4400,Li-ion
2023-04-14 18:17:46.580,4.285,2203,9.439855,78,39.0,2288.88,4400,Li-ion
2023-04-14 18:18:57.778,4.283,2102,9.00287,80,39.0,2358.24,4400,Li-ion
2023-04-14 18:20:09.085,4.28,2000,8.56,81,39.0,2392.92,4400,Li-ion
2023-04-14 18:21:36.767,4.28,1898,8.12344,82,38.9,2427.6,4400,Li-ion
2023-04-14 18:22:49.493,4.277,1795,7.677215,83,38.9,2462.28,4400,Li-ion
2023-04-14 18:24:15.943,4.294,1831,7.86231,85,38.8,2531.64,4400,Li-ion
2023-04-14 18:24:50.743,4.293,1786,7.6673,85,38.9,2531.64,4400,Li-ion
2023-04-14 18:25:25.268,4.293,1745,7.491285,86,39.0,2566.32,4400,Li-ion
2023-04-14 18:26:13.627,4.293,1707,7.32815,86,39.0,2566.32,4400,Li-ion
2023-04-14 18:26:48.018,4.235,1236,5.23446,87,38.7,2566.32,4400,Li-ion
2023-04-14 18:27:22.553,4.224,1147,4.844928,87,38.6,2601.0,4400,Li-ion
2023-04-14 18:27:57.257,4.232,729,3.085128,87,38.6,2601.0,4400,Li-ion
2023-04-14 18:28:31.648,4.211,1187,4.998457,88,38.6,2601.0,4400,Li-ion
2023-04-14 18:29:06.223,4.236,1131,4.790916,88,38.6,2601.0,4400,Li-ion
2023-04-14 18:29:41.071,4.25,839,3.56575,88,38.7,2635.68,4400,Li-ion
2023-04-14 18:30:15.318,4.206,1361,5.72437,88,38.7,2635.68,4400,Li-ion
2023-04-14 18:30:49.696,4.243,1148,4.870964,89,38.7,2670.36,4400,Li-ion
2023-04-14 18:31:24.022,4.252,788,3.350576,89,38.8,2670.36,4400,Li-ion
2023-04-14 18:31:58.207,4.25,1225,5.20625,89,38.8,2670.36,4400,Li-ion
2023-04-14 18:32:32.382,4.253,1143,4.861179,89,38.7,2670.36,4400,Li-ion
2023-04-14 18:33:07.056,4.21,834,3.51114,90,38.7,2705.04,4400,Li-ion
2023-04-14 18:33:41.557,4.263,1264,5.388432,90,38.7,2705.04,4400,Li-ion
2023-04-14 18:34:15.894,4.212,654,2.754648,90,38.7,2705.04,4400,Li-ion
2023-04-14 18:34:50.568,4.215,812,3.42258,91,38.7,2739.72,4400,Li-ion
2023-04-14 18:35:26.485,4.191,602,2.522982,91,38.7,2739.72,4400,Li-ion
2023-04-14 18:36:02.476,4.218,825,3.47985,91,38.7,2739.72,4400,Li-ion
2023-04-14 18:36:37.049,4.264,1400,5.9696,91,38.8,2739.72,4400,Li-ion
2023-04-14 18:37:12.965,4.264,1155,4.92492,91,38.8,2739.72,4400,Li-ion
2023-04-14 18:37:47.431,4.255,813,3.459315,92,38.9,2774.4,4400,Li-ion
2023-04-14 18:38:21.851,4.244,1081,4.587764,92,39.0,2774.4,4400,Li-ion
2023-04-14 18:38:56.166,4.253,1111,4.725083,92,39.0,2774.4,4400,Li-ion
2023-04-14 18:39:34.632,4.293,1322,5.675346,92,39.1,2774.4,4400,Li-ion
2023-04-14 18:40:16.565,4.293,1133,4.863969,93,39.0,2809.08,4400,Li-ion
2023-04-14 18:41:00.125,4.293,1249,5.361957,93,39.0,2843.76,4400,Li-ion
2023-04-14 18:42:08.324,4.294,1180,5.06692,94,38.8,2843.76,4400,Li-ion
2023-04-14 18:43:41.145,4.295,1110,4.76745,94,38.7,2878.44,4400,Li-ion
2023-04-14 18:45:09.984,4.295,1044,4.48398,95,38.3,2913.12,4400,Li-ion
2023-04-14 18:45:44.706,4.293,1020,4.37886,95,38.2,2913.12,4400,Li-ion
2023-04-14 18:46:46.843,4.292,983,4.219036,96,38.3,2913.12,4400,Li-ion
2023-04-14 18:48:26.372,4.294,919,3.946186,97,37.5,2947.8,4400,Li-ion
2023-04-14 18:49:39.314,4.294,873,3.748662,97,37.3,2982.48,4400,Li-ion
2023-04-14 18:51:11.778,4.294,826,3.546844,97,37.5,2982.48,4400,Li-ion
2023-04-14 18:52:40.222,4.294,782,3.357908,98,37.4,3017.16,4400,Li-ion
2023-04-14 18:54:33.990,4.294,740,3.17756,99,37.3,3051.84,4400,Li-ion
2023-04-14 18:55:46.427,4.294,720,3.09168,99,37.4,3051.84,4400,Li-ion
2023-04-14 18:56:57.330,4.294,687,2.949978,99,37.3,3086.52,4400,Li-ion
2023-04-14 18:58:29.911,4.294,658,2.825452,99,37.2,3086.52,4400,Li-ion
2023-04-14 19:00:07.535,4.295,622,2.67149,99,37.1,3121.2,4400,Li-ion
2023-04-14 19:00:53.524,4.294,399,1.713306,100,37.1,3121.2,4400,Li-ion